trial,v_50_1,v_50_2,v_100,subject choice,computer choice,rt(ms)
1,5.31,-22.89,0,True,0,3151.4639854431152
2,22.67,-22.89,0,False,-22.89,1692.6679611206055
3,12.75,-22.89,0,True,0,1618.9911365509033
4,2.83,-32.65,0,True,0,1488.8551235198975
5,0.35,-9.88,0,True,0,2005.3160190582275
6,5.31,-29.4,0,True,0,2036.2548828125
7,2.83,-13.13,0,True,0,1374.2351531982422
8,7.79,-0.12,0,False,7.79,2175.3809452056885
9,2.83,-9.88,0,True,0,1523.6001014709473
10,2.83,-22.89,0,True,0,2804.311990737915
11,25.15,-32.65,0,True,0,2208.0259323120117
12,20.19,-3.37,0,False,-3.37,1548.926830291748
13,22.67,-13.13,0,False,-13.13,1758.810043334961
14,25.15,-13.13,0,False,25.15,1184.1750144958496
15,12.75,-13.13,0,False,12.75,2056.6658973693848
16,20.19,-29.4,0,True,0,2495.327949523926
17,17.71,-9.88,0,False,17.71,2000.9469985961914
18,20.19,-22.89,0,False,20.19,1393.9731121063232
19,15.23,-22.89,0,True,0,1500.5409717559814
20,0.35,-3.37,0,True,0,1938.033103942871
21,2.83,-19.64,0,True,0,3223.644018173218
22,25.15,-16.38,0,False,-16.38,1304.9561977386475
23,22.67,-6.62,0,False,22.67,10554.446935653687
24,15.23,-16.38,0,False,-16.38,8328.380823135376
25,17.71,-6.62,0,False,-6.62,6225.007057189941
26,7.79,-16.38,0,True,0,1499.9668598175049
27,15.23,-9.88,0,False,-9.88,2868.366003036499
28,15.23,-6.62,0,False,-6.62,4867.231845855713
29,10.27,-19.64,0,True,0,1349.782943725586
30,5.31,-3.37,0,False,5.31,1726.012945175171
31,25.15,-9.88,0,False,-9.88,1322.418212890625
32,25.15,-6.62,0,False,-6.62,1267.8699493408203
33,10.27,-6.62,0,False,-6.62,2423.2890605926514
34,17.71,-32.65,0,True,0,1493.3290481567383
35,25.15,-19.64,0,False,25.15,3210.953950881958
36,17.71,-26.14,0,True,0,1800.1370429992676
37,2.83,-6.62,0,True,0,1382.798194885254
38,0.35,-6.62,0,True,0,1407.837152481079
39,15.23,-32.65,0,True,0,1185.7450008392334
40,5.31,-6.62,0,True,0,1116.1000728607178
41,0.35,-13.13,0,True,0,1081.3560485839844
42,7.79,-3.37,0,False,7.79,1646.6879844665527
43,22.67,-9.88,0,False,-9.88,1286.959171295166
44,0.35,-32.65,0,True,0,3407.226085662842
45,7.79,-32.65,0,True,0,1152.6470184326172
46,2.83,-16.38,0,True,0,1695.957899093628
47,17.71,-0.12,0,True,0,1423.414945602417
48,20.19,-0.12,0,False,-0.12,1162.4279022216797
49,20.19,-32.65,0,True,0,1132.5180530548096
50,22.67,-19.64,0,False,-19.64,1197.2570419311523
51,5.31,-26.14,0,True,0,1051.5811443328857
52,7.79,-29.4,0,True,0,1138.9710903167725
53,15.23,-0.12,0,False,15.23,1285.4480743408203
54,0.35,-26.14,0,True,0,999.3488788604736
55,17.71,-16.38,0,True,0,2531.7859649658203
56,20.19,-26.14,0,True,0,1614.4020557403564
57,10.27,-3.37,0,False,10.27,1389.7831439971924
58,17.71,-3.37,0,False,17.71,1266.995906829834
59,20.19,-6.62,0,False,-6.62,1415.666103363037
60,2.83,-0.12,0,True,0,1218.4269428253174
61,7.79,-22.89,0,True,0,1630.2680969238281
62,0.35,-16.38,0,True,0,1297.584056854248
63,12.75,-0.12,0,False,12.75,1410.4809761047363
64,20.19,-16.38,0,True,0,942.223072052002
65,10.27,-9.88,0,True,0,1390.5279636383057
66,0.35,-22.89,0,True,0,1097.5301265716553
67,2.83,-3.37,0,True,0,1303.286075592041
68,17.71,-29.4,0,True,0,1191.2460327148438
69,12.75,-3.37,0,False,-3.37,1739.0668392181396
70,10.27,-0.12,0,False,-0.12,1377.3210048675537
71,7.79,-19.64,0,True,0,1187.5171661376953
72,22.67,-0.12,0,False,-0.12,1146.1660861968994
73,7.79,-13.13,0,True,0,1169.4979667663574
74,12.75,-29.4,0,True,0,1227.5629043579102
75,10.27,-16.38,0,True,0,1864.197015762329
76,17.71,-19.64,0,True,0,1222.7067947387695
77,17.71,-22.89,0,True,0,1488.9700412750244
78,5.31,-9.88,0,True,0,1403.8560390472412
79,22.67,-26.14,0,True,0,1688.9970302581787
80,15.23,-29.4,0,True,0,1501.1029243469238
81,25.15,-26.14,0,True,0,1001.7809867858887
82,22.67,-32.65,0,True,0,1158.0429077148438
83,10.27,-29.4,0,True,0,1353.0631065368652
84,5.31,-32.65,0,True,0,1042.241096496582
85,0.35,-19.64,0,True,0,1473.6120700836182
86,7.79,-6.62,0,True,0,1271.64888381958
87,15.23,-26.14,0,True,0,1296.5140342712402
88,20.19,-19.64,0,True,0,1576.3487815856934
89,10.27,-26.14,0,True,0,1235.8109951019287
90,17.71,-13.13,0,True,0,1556.9181442260742
91,2.83,-29.4,0,True,0,1705.683946609497
92,12.75,-16.38,0,True,0,1085.1280689239502
93,5.31,-0.12,0,False,5.31,2195.2719688415527
94,22.67,-3.37,0,False,-3.37,1307.9018592834473
95,25.15,-29.4,0,True,0,1230.9658527374268
96,7.79,-26.14,0,True,0,1359.442949295044
97,22.67,-29.4,0,True,0,1369.6980476379395
98,5.31,-16.38,0,True,0,1050.8310794830322
99,25.15,-3.37,0,False,25.15,1311.4039897918701
100,25.15,-0.12,0,False,25.15,1354.0310859680176
101,12.75,-26.14,0,True,0,942.1291351318359
102,12.75,-6.62,0,True,0,1672.546148300171
103,12.75,-9.88,0,True,0,1027.419090270996
104,10.27,-32.65,0,True,0,1062.972068786621
105,5.31,-19.64,0,True,0,1226.337194442749
106,15.23,-3.37,0,True,0,4124.783992767334
107,22.67,-16.38,0,True,0,1322.8051662445068
108,5.31,-13.13,0,True,0,1490.0660514831543
109,2.83,-26.14,0,True,0,1387.7129554748535
110,25.15,-22.89,0,True,0,1438.7331008911133
111,12.75,-32.65,0,True,0,1200.9780406951904
112,12.75,-19.64,0,True,0,1240.757942199707
113,15.23,-13.13,0,True,0,1122.502088546753
114,20.19,-13.13,0,True,0,1001.6748905181885
115,0.35,-0.12,0,True,0,1266.4518356323242
116,0.35,-29.4,0,True,0,1045.5069541931152
117,10.27,-22.89,0,True,0,805.0949573516846
118,7.79,-9.88,0,True,0,3064.411163330078
119,20.19,-9.88,0,False,-9.88,1740.1041984558105
120,15.23,-19.64,0,True,0,1043.9529418945312
121,10.27,-13.13,0,True,0,1441.5340423583984
