trial,v_50_1,v_50_2,v_100,subject choice,computer choice,rt(ms)
1,15,30,22.5,True,22.5,12085.35099029541
2,15,30,18.75,False,30,9249.244213104248
3,15,30,20.625,False,15,11414.627075195312
4,15,30,21.5625,True,21.56,3750.1730918884277
5,15,30,21.09375,True,21.09,2999.8769760131836
6,15,30,20.859375,True,20.86,5196.642875671387
7,0,-15,-7.5,True,-7.5,12653.639078140259
8,0,-15,-11.25,False,0,2849.1740226745605
9,0,-15,-9.375,False,0,13161.4511013031
10,0,-15,-8.4375,False,-15,4508.121013641357
11,0,-15,-7.96875,False,0,2292.09303855896
12,0,-15,-7.734375,False,0,3555.87100982666
13,0,-5,-2.5,False,-5,6376.643896102905
14,0,-5,-1.25,True,-1.25,12480.041027069092
15,0,-5,-1.875,True,-1.88,7633.412837982178
16,0,-5,-2.1875,True,-2.19,10228.195905685425
17,0,-5,-2.34375,False,-5,269.4859504699707
18,0,-5,-2.265625,True,-2.27,1851.435899734497
19,-21,-30,-25.5,False,-21,8012.035846710205
20,-21,-30,-23.25,False,-30,3327.8110027313232
21,-21,-30,-22.125,True,-22.12,19784.47914123535
22,-21,-30,-22.6875,True,-22.69,2879.305124282837
23,-21,-30,-22.96875,True,-22.97,1899.7490406036377
24,-21,-30,-23.109375,True,-23.11,4562.478065490723
25,0,30,15.0,False,0,5050.755023956299
26,0,30,22.5,True,22.5,5698.638916015625
27,0,30,18.75,True,18.75,1907.8781604766846
28,0,30,16.875,False,30,4972.185134887695
29,0,30,17.8125,False,30,6843.957901000977
30,0,30,18.28125,True,18.28,4865.278005599976
31,0,15,7.5,False,0,3679.0218353271484
32,0,15,11.25,True,11.25,2789.639949798584
33,0,15,9.375,False,15,5221.841096878052
34,0,15,10.3125,True,10.31,7435.794830322266
35,0,15,9.84375,False,15,9792.111873626709
36,0,15,10.078125,True,10.08,8538.871049880981
37,0,-30,-15.0,False,0,5990.572929382324
38,0,-30,-7.5,True,-7.5,7260.056972503662
39,0,-30,-11.25,True,-11.25,1984.696865081787
40,0,-30,-13.125,False,-30,6778.066873550415
41,0,-30,-12.1875,False,0,3896.606922149658
42,0,-30,-11.71875,True,-11.72,15184.534072875977
43,-15,-30,-22.5,False,-15,8203.34005355835
44,-15,-30,-18.75,True,-18.75,15655.935049057007
45,-15,-30,-20.625,False,-15,8590.419054031372
46,-15,-30,-19.6875,False,-30,7163.444995880127
47,-15,-30,-19.21875,False,-30,3283.405065536499
48,-15,-30,-18.984375,False,-15,4628.2618045806885
49,0,-10,-5.0,False,0,14536.211967468262
50,0,-10,-2.5,True,-2.5,4543.804883956909
51,0,-10,-3.75,True,-3.75,2482.3780059814453
52,0,-10,-4.375,True,-4.38,1441.0700798034668
53,0,-10,-4.6875,True,-4.69,3282.719135284424
54,0,-10,-4.84375,True,-4.84,1725.4579067230225
55,21,30,25.5,False,21,9923.415899276733
56,21,30,27.75,True,27.75,2087.7318382263184
57,21,30,26.625,True,26.62,1001.6658306121826
58,21,30,26.0625,True,26.06,1670.8581447601318
59,21,30,25.78125,True,25.78,1369.5740699768066
60,21,30,25.640625,True,25.64,2477.283000946045
61,0,5,2.5,False,5,5495.139122009277
62,0,5,3.75,True,3.75,8679.135084152222
63,0,5,3.125,False,0,1624.2539882659912
64,0,5,3.4375,True,3.44,2238.4209632873535
65,0,5,3.28125,True,3.28,3977.5781631469727
66,0,5,3.203125,True,3.2,11346.309900283813
67,0,10,5.0,True,5.0,4825.749158859253
68,0,10,2.5,False,0,2240.8061027526855
69,0,10,3.75,True,3.75,3093.092918395996
70,0,10,3.125,False,10,2627.9919147491455
71,0,10,3.4375,False,0,2158.616065979004
72,0,10,3.59375,False,0,3940.053939819336
73,18.046875,-18.046875,0,False,-18.05,6987.487077713013
74,18.046875,-36.09375,0,True,0,3570.9121227264404
75,18.046875,-27.0703125,0,True,0,2506.911039352417
76,18.046875,-22.55859375,0,True,0,1520.500898361206
77,18.046875,-20.302734375,0,True,0,4535.44807434082
78,18.046875,-19.1748046875,0,True,0,12973.888158798218
79,20.9765625,-20.9765625,0,True,0,2621.6537952423096
80,20.9765625,-10.48828125,0,False,-10.49,4385.197877883911
81,20.9765625,-15.732421875,0,True,0,9910.935878753662
82,20.9765625,-13.1103515625,0,False,20.98,1929.0051460266113
83,20.9765625,-14.42138671875,0,False,20.98,4534.554004669189
84,20.9765625,-15.076904296875,0,True,0,2331.115961074829
85,25.7109375,-25.7109375,0,True,0,2259.5279216766357
86,25.7109375,-12.85546875,0,False,25.71,3538.619041442871
87,25.7109375,-19.283203125,0,True,0,3969.50101852417
88,25.7109375,-16.0693359375,0,False,-16.07,4061.4819526672363
89,25.7109375,-17.67626953125,0,True,0,2736.152172088623
90,25.7109375,-16.872802734375,0,True,0,3774.033784866333
91,3.515625,-3.515625,0,True,0,1528.3620357513428
92,3.515625,-1.7578125,0,False,3.52,4267.110824584961
93,3.515625,-2.63671875,0,False,3.52,2250.9219646453857
94,3.515625,-3.076171875,0,False,3.52,3494.7669506073
95,3.515625,-3.2958984375,0,False,3.52,2829.066038131714
96,3.515625,-3.40576171875,0,False,-3.41,1003.8511753082275
97,9.9609375,-9.9609375,0,True,0,3888.056993484497
98,9.9609375,-4.98046875,0,False,9.96,1819.7500705718994
99,9.9609375,-7.470703125,0,True,0,1926.9921779632568
100,9.9609375,-6.2255859375,0,True,0,1719.099998474121
101,9.9609375,-5.60302734375,0,False,-5.6,5421.272039413452
102,9.9609375,-5.914306640625,0,False,-5.91,2475.4440784454346
103,3.2421875,-3.2421875,0,True,0,1666.1639213562012
104,3.2421875,-1.62109375,0,False,-1.62,5237.9608154296875
105,3.2421875,-2.431640625,0,False,3.24,6249.239921569824
106,3.2421875,-2.8369140625,0,False,3.24,4718.806982040405
107,3.2421875,-3.03955078125,0,False,3.24,1270.1539993286133
108,3.2421875,-3.140869140625,0,False,-3.14,2072.582960128784
