trial,v_50_1,v_50_2,v_100,subject choice,computer choice,rt(ms),,
8,-5,-30,-17.5,TRUE,-17.5,2091.485023,,
<bound method App.trialNo of <__main__.App object at 0x101ae0f98>>,-5,-30,-23.75,FALSE,-30,2233.792067,,
<bound method App.trialNo of <__main__.App object at 0x101ae0f98>>,-5,-30,-20.625,FALSE,-30,1085.621119,,
<bound method App.trialNo of <__main__.App object at 0x101ae0f98>>,-5,-30,-19.0625,FALSE,-5,1360.033989,,
<bound method App.trialNo of <__main__.App object at 0x101ae0f98>>,-5,-30,-18.28125,FALSE,-5,1381.83403,,
<bound method App.trialNo of <__main__.App object at 0x101ae0f98>>,-5,-30,-17.890625,FALSE,-30,1883.437872,,
6,-4,-24,-14,TRUE,-14,4172.918081,,
<bound method App.trialNo of <__main__.App object at 0x101ae0f98>>,-4,-24,-19,FALSE,-4,5420.239925,,
<bound method App.trialNo of <__main__.App object at 0x101ae0f98>>,-4,-24,-16.5,FALSE,-24,4333.278894,,
<bound method App.trialNo of <__main__.App object at 0x101ae0f98>>,-4,-24,-15.25,FALSE,-24,1406.363964,,
<bound method App.trialNo of <__main__.App object at 0x101ae0f98>>,-4,-24,-14.625,FALSE,-4,1873.140097,,
<bound method App.trialNo of <__main__.App object at 0x101ae0f98>>,-4,-24,-14.3125,FALSE,-4,4070.381165,,
<bound method App.trialNo of <__main__.App object at 0x101ae0f98>>,-3,-18,-10.5,FALSE,-3,2438.707829,,
13,-3,-18,-6.75,TRUE,-6.8,1226.033926,,
17,-3,-18,-8.625,TRUE,-8.6,897.7959156,,
<bound method App.trialNo of <__main__.App object at 0x101ae0f98>>,-3,-18,-9.5625,FALSE,-3,4418.499947,,
<bound method App.trialNo of <__main__.App object at 0x101ae0f98>>,-3,-18,-9.09375,FALSE,-3,4790.612936,,
<bound method App.trialNo of <__main__.App object at 0x101ae0f98>>,-3,-18,-8.859375,FALSE,-18,5288.654089,,
<bound method App.trialNo of <__main__.App object at 0x101ae0f98>>,-2,-12,-7,FALSE,-12,3258.113861,,
9,-2,-12,-4.5,TRUE,-4.5,2502.947092,,
14,-2,-12,-5.75,TRUE,-5.8,2692.342997,,
50,-2,-12,-6.375,TRUE,-6.4,3516.217947,,
<bound method App.trialNo of <__main__.App object at 0x101ae0f98>>,-2,-12,-6.6875,FALSE,-12,1952.429056,,
<bound method App.trialNo of <__main__.App object at 0x101ae0f98>>,-2,-12,-6.53125,FALSE,-12,2173.438072,,
16,-1,-6,-3.5,TRUE,-3.5,1258.657932,,
<bound method App.trialNo of <__main__.App object at 0x101ae0f98>>,-1,-6,-4.75,FALSE,-6,1965.907097,,
<bound method App.trialNo of <__main__.App object at 0x101ae0f98>>,-1,-6,-4.125,FALSE,-1,2182.607174,,
<bound method App.trialNo of <__main__.App object at 0x101ae0f98>>,-1,-6,-3.8125,FALSE,-6,2959.872007,,
<bound method App.trialNo of <__main__.App object at 0x101ae0f98>>,-1,-6,-3.65625,FALSE,-6,3138.062954,,
56,-1,-6,-3.578125,TRUE,-3.6,4099.786043,,
<bound method App.trialNo of <__main__.App object at 0x101ae0f98>>,1,6,3.5,FALSE,1,2601.758003,,
11,1,6,4.75,TRUE,4.8,1982.009172,,
15,1,6,4.125,TRUE,4.1,2012.199163,,
25,1,6,3.8125,TRUE,3.8,1756.935835,,
<bound method App.trialNo of <__main__.App object at 0x101ae0f98>>,1,6,3.65625,FALSE,6,366.3668633,,
43,1,6,3.734375,TRUE,3.7,2314.787149,,
0,2,12,7,TRUE,7,5274.030209,,
<bound method App.trialNo of <__main__.App object at 0x101ae0f98>>,2,12,4.5,FALSE,2,1884.517908,,
<bound method App.trialNo of <__main__.App object at 0x101ae0f98>>,2,12,5.75,FALSE,2,2243.041039,,
38,2,12,6.375,TRUE,6.4,2104.69079,,
48,2,12,6.0625,TRUE,6.1,3594.811916,,
<bound method App.trialNo of <__main__.App object at 0x101ae0f98>>,2,12,5.90625,FALSE,12,866.147995,,
5,3,18,10.5,TRUE,10.5,3108.520031,,
<bound method App.trialNo of <__main__.App object at 0x101ae0f98>>,3,18,6.75,FALSE,3,3572.226048,,
29,3,18,8.625,TRUE,8.6,1460.540056,,
<bound method App.trialNo of <__main__.App object at 0x101ae0f98>>,3,18,7.6875,FALSE,3,1370.411873,,
57,3,18,8.15625,TRUE,8.2,793.8790321,,
<bound method App.trialNo of <__main__.App object at 0x101ae0f98>>,3,18,7.921875,FALSE,3,1212.623119,,
61,3.6953125,-3.6953125,0,TRUE,0,1870.008945,,
<bound method App.trialNo of <__main__.App object at 0x101ae0f98>>,3.6953125,-1.84765625,0,FALSE,3.7,1619.708061,,
<bound method App.trialNo of <__main__.App object at 0x101ae0f98>>,3.6953125,-2.771484375,0,FALSE,-2.8,1227.477074,,
<bound method App.trialNo of <__main__.App object at 0x101ae0f98>>,3.6953125,-3.233398438,0,FALSE,-3.2,1130.197048,,
79,3.6953125,-3.464355469,0,TRUE,0,623.953104,,
<bound method App.trialNo of <__main__.App object at 0x101ae0f98>>,3.6953125,-3.348876953,0,FALSE,3.7,1333.317041,,
81,3.6953125,-3.6953125,0,TRUE,0,1684.230089,,
1,4,24,14,TRUE,14,2146.220207,,
<bound method App.trialNo of <__main__.App object at 0x101ae0f98>>,4,24,9,FALSE,24,3665.296078,,
<bound method App.trialNo of <__main__.App object at 0x101ae0f98>>,4,24,11.5,FALSE,24,2780.591011,,
<bound method App.trialNo of <__main__.App object at 0x101ae0f98>>,4,24,12.75,FALSE,4,1214.880943,,
39,4,24,13.375,TRUE,13.4,2070.351124,,
46,4,24,13.0625,TRUE,13.1,1665.813923,,
20,5,30,17.5,TRUE,17.5,1262.341976,,0.5x(u(5)-u(30)) + u(30) = 17.5
<bound method App.trialNo of <__main__.App object at 0x101ae0f98>>,5,30,11.25,FALSE,30,2451.673985,,0.5x(u(5)-u(30)) + u(30) = 11.25
<bound method App.trialNo of <__main__.App object at 0x101ae0f98>>,5,30,14.375,FALSE,30,2905.507088,,0.5x(u(5)-u(30)) + u(30) = 14.37
<bound method App.trialNo of <__main__.App object at 0x101ae0f98>>,5,30,15.9375,FALSE,30,2969.704151,,0.5x(u(5)-u(30)) + u(30) = 15.93
<bound method App.trialNo of <__main__.App object at 0x101ae0f98>>,5,30,16.71875,FALSE,5,2387.684822,,0.5x(u(5)-u(30)) + u(30) = 16.71
40,5,30,17.109375,TRUE,17.1,1243.129015,,0.5x(u(5)-u(30)) + u(30) = 17.1
<bound method App.trialNo of <__main__.App object at 0x101ae0f98>>,5.984375,-5.984375,0,FALSE,6,1487.784863,,
<bound method App.trialNo of <__main__.App object at 0x101ae0f98>>,5.984375,-20.9453125,0,FALSE,-20.9,719.479084,,
71,5.984375,-28.42578125,0,TRUE,0,1312.988043,,
72,5.984375,-24.68554688,0,TRUE,0,1086.195946,,
73,5.984375,-22.81542969,0,TRUE,0,1350.031853,,
74,5.984375,-21.88037109,0,TRUE,0,1192.68322,,
<bound method App.trialNo of <__main__.App object at 0x101ae0f98>>,5.984375,-5.984375,0,FALSE,6,1471.562147,,
<bound method App.trialNo of <__main__.App object at 0x101ae0f98>>,8.0390625,-8.0390625,0,FALSE,-8,1219.987869,,
66,8.0390625,-28.13671875,0,TRUE,0,1470.72196,,
68,8.0390625,-18.08789063,0,TRUE,0,1079.469919,,
69,8.0390625,-13.06347656,0,TRUE,0,1763.635159,,
70,8.0390625,-10.55126953,0,TRUE,0,1607.754946,,
<bound method App.trialNo of <__main__.App object at 0x101ae0f98>>,8.0390625,-9.295166016,0,FALSE,8,1116.20903,,
82,8.0390625,-8.0390625,0,TRUE,0,1410.013199,,
<bound method App.trialNo of <__main__.App object at 0x101ae0f98>>,13.21875,-13.21875,0,FALSE,-13.2,1743.929863,,
83,13.21875,-46.265625,0,TRUE,0,1266.738892,,
85,13.21875,-29.7421875,0,TRUE,0,1049.435854,,
86,13.21875,-21.48046875,0,TRUE,0,1087.568045,,
88,13.21875,-17.34960938,0,TRUE,0,1051.50485,,
92,13.21875,-15.28417969,0,TRUE,0,1819.812059,,
94,13.21875,-13.21875,0,TRUE,0,1236.27305,,
<bound method App.trialNo of <__main__.App object at 0x101ae0f98>>,16.9140625,-16.9140625,0,FALSE,16.9,1979.13003,,
84,16.9140625,-59.19921875,0,TRUE,0,1146.126032,,
87,16.9140625,-38.05664063,0,TRUE,0,1038.700104,,
89,16.9140625,-27.48535156,0,TRUE,0,1212.893009,,
90,16.9140625,-22.19970703,0,TRUE,0,1014.163971,,
91,16.9140625,-19.55688477,0,TRUE,0,1973.19293,,
<bound method App.trialNo of <__main__.App object at 0x101ae0f98>>,16.9140625,-16.9140625,0,FALSE,16.9,1243.505955,,